delay	freq	condition	trials.thisRepN	trials.thisTrialN	trials.thisN	trials.thisIndex	polygon.started	polygon_2.started	key_resp.started	polygon.stopped	key_resp.keys	key_resp.rt	sound_1.started	text.started	textbox.started	button.started	textbox.text	button.numClicks	button.timesOn	button.timesOff	sound_1.stopped	participant	session	date	expName	psychopyVersion	frameRate
0.4	1000	exp	0	0	0	4	22.4697342	23.4065781	23.4065781	23.4726672	space	2.1753838	26.00117557	26.4498134	26.4498134	26.4498134	200	1	[14.757660900009796]	[14.757675100001507]		661317	1	2022-11-10_17h48.41.895	Tutorial 7	2022.2.2	60.10157166
0.7	1000	exp	0	1	1	11	41.0609115	42.0602896	42.0602896	42.0762818	space	1.3725338	44.15745847	44.4682403	44.4682403	44.4682403	300	2	"[14.757660900009796, 3.497444099979475]"	"[14.757675100001507, 3.4974542999989353]"	44.4682403	661317	1	2022-11-10_17h48.41.895	Tutorial 7	2022.2.2	60.10157166
0.4	1000	exp	0	2	2	10	47.9513862	48.9491166	48.9491166	48.9653525	space	1.8038318	51.17935087	51.4905102	51.4905102	51.4905102	150	3	"[14.757660900009796, 3.497444099979475, 4.328392499999609]"	"[14.757675100001507, 3.4974542999989353, 4.32840329996543]"		661317	1	2022-11-10_17h48.41.895	Tutorial 7	2022.2.2	60.10157166
0.7	1000	exp	0	3	3	8	55.8051083	56.8032402	56.8032402	56.8199181	space	2.5399157	60.06580967	60.380063	60.380063	60.380063	200	4	"[14.757660900009796, 3.497444099979475, 4.328392499999609, 3.927760999999009]"	"[14.757675100001507, 3.4974542999989353, 4.32840329996543, 3.9277719000237994]"		661317	1	2022-11-10_17h48.41.895	Tutorial 7	2022.2.2	60.10157166
0.4	1000	exp	0	4	4	7	64.2916857	65.2910444	65.2910444	65.3075604	space	1.9561013	67.67073877	67.9827399	67.9827399	67.9827399	50	5	"[14.757660900009796, 3.497444099979475, 4.328392499999609, 3.927760999999009, 10.766770799993537]"	"[14.757675100001507, 3.4974542999989353, 4.32840329996543, 3.9277719000237994, 10.76678050000919]"	67.9827399	661317	1	2022-11-10_17h48.41.895	Tutorial 7	2022.2.2	60.10157166
0.4	400	unexp	0	5	5	1	78.7361047	79.7353913	79.7353913	79.751736	space	1.5025851	81.66573707	81.9758883	81.9758883	81.9758883	0	6	"[14.757660900009796, 3.497444099979475, 4.328392499999609, 3.927760999999009, 10.766770799993537, 6.737027299997862]"	"[14.757675100001507, 3.4974542999989353, 4.32840329996543, 3.9277719000237994, 10.76678050000919, 6.737040099978913]"	81.9758883	661317	1	2022-11-10_17h48.41.895	Tutorial 7	2022.2.2	60.10157166
0.7	400	unexp	0	6	6	2	88.704498	89.7034874	89.7034874	89.7204739	space	2.0925791	92.51606547	92.8279677	92.8279677	92.8279677	150	7	"[14.757660900009796, 3.497444099979475, 4.328392499999609, 3.927760999999009, 10.766770799993537, 6.737027299997862, 9.850475099985488]"	"[14.757675100001507, 3.4974542999989353, 4.32840329996543, 3.9277719000237994, 10.76678050000919, 6.737040099978913, 9.850486399955116]"	92.8279677	661317	1	2022-11-10_17h48.41.895	Tutorial 7	2022.2.2	60.10157166
0.1	1000	exp	0	7	7	3	102.6660631	103.6647071	103.6647071	103.6647071	space	1.5693326	105.3623748	105.6730422	105.6730422	105.6730422	0	8	"[14.757660900009796, 3.497444099979475, 4.328392499999609, 3.927760999999009, 10.766770799993537, 6.737027299997862, 9.850475099985488, 3.2098986000055447]"	"[14.757675100001507, 3.4974542999989353, 4.32840329996543, 3.9277719000237994, 10.76678050000919, 6.737040099978913, 9.850486399955116, 3.2099119999911636]"	105.6730422	661317	1	2022-11-10_17h48.41.895	Tutorial 7	2022.2.2	60.10157166
0.1	1000	exp	0	8	8	6	108.8735155	109.8725095	109.8725095	109.8890219	space	1.6124088	111.6030247	111.9125085	111.9125085	111.9125085	0	9	"[14.757660900009796, 3.497444099979475, 4.328392499999609, 3.927760999999009, 10.766770799993537, 6.737027299997862, 9.850475099985488, 3.2098986000055447, 3.489623199973721]"	"[14.757675100001507, 3.4974542999989353, 4.32840329996543, 3.9277719000237994, 10.76678050000919, 6.737040099978913, 9.850486399955116, 3.2099119999911636, 3.4896329999901354]"	111.9125085	661317	1	2022-11-10_17h48.41.895	Tutorial 7	2022.2.2	60.10157166
0.1	400	unexp	0	9	9	0	115.3959146	116.3952858	116.3952858	116.3952858	space	0.7297177	117.2437105	117.5520262	117.5520262	117.5520262	50	10	"[14.757660900009796, 3.497444099979475, 4.328392499999609, 3.927760999999009, 10.766770799993537, 6.737027299997862, 9.850475099985488, 3.2098986000055447, 3.489623199973721, 1.4319361999514513]"	"[14.757675100001507, 3.4974542999989353, 4.32840329996543, 3.9277719000237994, 10.76678050000919, 6.737040099978913, 9.850486399955116, 3.2099119999911636, 3.4896329999901354, 1.4319467999739572]"		661317	1	2022-11-10_17h48.41.895	Tutorial 7	2022.2.2	60.10157166
0.7	1000	exp	0	10	10	5	118.9741021	119.9731177	119.9731177	119.9906478	space	3.3807183	124.0836925	124.3959953	124.3959953	124.3959953	200	11	"[14.757660900009796, 3.497444099979475, 4.328392499999609, 3.927760999999009, 10.766770799993537, 6.737027299997862, 9.850475099985488, 3.2098986000055447, 3.489623199973721, 1.4319361999514513, 4.888519899977837]"	"[14.757675100001507, 3.4974542999989353, 4.32840329996543, 3.9277719000237994, 10.76678050000919, 6.737040099978913, 9.850486399955116, 3.2099119999911636, 3.4896329999901354, 1.4319467999739572, 4.888528199982829]"	124.3959953	661317	1	2022-11-10_17h48.41.895	Tutorial 7	2022.2.2	60.10157166
0.1	1000	exp	0	11	11	9	129.2743008	130.2737848	130.2737848	130.2737848	space	3.0895521	133.4856742	133.7990771	133.7990771	133.7990771	0	12	"[14.757660900009796, 3.497444099979475, 4.328392499999609, 3.927760999999009, 10.766770799993537, 6.737027299997862, 9.850475099985488, 3.2098986000055447, 3.489623199973721, 1.4319361999514513, 4.888519899977837, 2.1293566999956965]"	"[14.757675100001507, 3.4974542999989353, 4.32840329996543, 3.9277719000237994, 10.76678050000919, 6.737040099978913, 9.850486399955116, 3.2099119999911636, 3.4896329999901354, 1.4319467999739572, 4.888528199982829, 2.129367900022771]"		661317	1	2022-11-10_17h48.41.895	Tutorial 7	2022.2.2	60.10157166
0.4	400	unexp	1	0	12	1	135.9148569	136.913226	136.913226	136.9310922	space	0.8537095	138.1950827	138.5063225	138.5063225	138.5063225	50	13	"[14.757660900009796, 3.497444099979475, 4.328392499999609, 3.927760999999009, 10.766770799993537, 6.737027299997862, 9.850475099985488, 3.2098986000055447, 3.489623199973721, 1.4319361999514513, 4.888519899977837, 2.1293566999956965, 2.9275343000190333]"	"[14.757675100001507, 3.4974542999989353, 4.32840329996543, 3.9277719000237994, 10.76678050000919, 6.737040099978913, 9.850486399955116, 3.2099119999911636, 3.4896329999901354, 1.4319467999739572, 4.888528199982829, 2.129367900022771, 2.9275459999917075]"		661317	1	2022-11-10_17h48.41.895	Tutorial 7	2022.2.2	60.10157166
0.4	1000	exp	1	1	13	10	141.422745	142.4219643	142.4219643	142.4384619	space	1.0245462	143.8696225	144.1829297	144.1829297	144.1829297	50	14	"[14.757660900009796, 3.497444099979475, 4.328392499999609, 3.927760999999009, 10.766770799993537, 6.737027299997862, 9.850475099985488, 3.2098986000055447, 3.489623199973721, 1.4319361999514513, 4.888519899977837, 2.1293566999956965, 2.9275343000190333, 3.095291699981317]"	"[14.757675100001507, 3.4974542999989353, 4.32840329996543, 3.9277719000237994, 10.76678050000919, 6.737040099978913, 9.850486399955116, 3.2099119999911636, 3.4896329999901354, 1.4319467999739572, 4.888528199982829, 2.129367900022771, 2.9275459999917075, 3.0953026000061072]"		661317	1	2022-11-10_17h48.41.895	Tutorial 7	2022.2.2	60.10157166
0.7	1000	exp	1	2	14	8	147.264107	148.2622883	148.2622883	148.2788822	space	0.6775588	149.6606073	149.9730399	149.9730399	149.9730399	200	15	"[14.757660900009796, 3.497444099979475, 4.328392499999609, 3.927760999999009, 10.766770799993537, 6.737027299997862, 9.850475099985488, 3.2098986000055447, 3.489623199973721, 1.4319361999514513, 4.888519899977837, 2.1293566999956965, 2.9275343000190333, 3.095291699981317, 3.1331795000005513]"	"[14.757675100001507, 3.4974542999989353, 4.32840329996543, 3.9277719000237994, 10.76678050000919, 6.737040099978913, 9.850486399955116, 3.2099119999911636, 3.4896329999901354, 1.4319467999739572, 4.888528199982829, 2.129367900022771, 2.9275459999917075, 3.0953026000061072, 3.1331902000238188]"		661317	1	2022-11-10_17h48.41.895	Tutorial 7	2022.2.2	60.10157166
0.1	400	unexp	1	3	15	0	153.1034559	154.0854366	154.0854366	154.1187704	space	1.9976545	156.2006297	156.5129818	156.5129818	156.5129818	0	16	"[14.757660900009796, 3.497444099979475, 4.328392499999609, 3.927760999999009, 10.766770799993537, 6.737027299997862, 9.850475099985488, 3.2098986000055447, 3.489623199973721, 1.4319361999514513, 4.888519899977837, 2.1293566999956965, 2.9275343000190333, 3.095291699981317, 3.1331795000005513, 4.370795299997553]"	"[14.757675100001507, 3.4974542999989353, 4.32840329996543, 3.9277719000237994, 10.76678050000919, 6.737040099978913, 9.850486399955116, 3.2099119999911636, 3.4896329999901354, 1.4319467999739572, 4.888528199982829, 2.129367900022771, 2.9275459999917075, 3.0953026000061072, 3.1331902000238188, 4.37080109998351]"		661317	1	2022-11-10_17h48.41.895	Tutorial 7	2022.2.2	60.10157166
0.1	1000	exp	1	4	16	3	160.874716	161.8740093	161.8740093	161.8740093	space	0.8914666	162.8900008	163.1977519	163.1977519	163.1977519	0	17	"[14.757660900009796, 3.497444099979475, 4.328392499999609, 3.927760999999009, 10.766770799993537, 6.737027299997862, 9.850475099985488, 3.2098986000055447, 3.489623199973721, 1.4319361999514513, 4.888519899977837, 2.1293566999956965, 2.9275343000190333, 3.095291699981317, 3.1331795000005513, 4.370795299997553, 2.834529699990526]"	"[14.757675100001507, 3.4974542999989353, 4.32840329996543, 3.9277719000237994, 10.76678050000919, 6.737040099978913, 9.850486399955116, 3.2099119999911636, 3.4896329999901354, 1.4319467999739572, 4.888528199982829, 2.129367900022771, 2.9275459999917075, 3.0953026000061072, 3.1331902000238188, 4.37080109998351, 2.834541000018362]"		661317	1	2022-11-10_17h48.41.895	Tutorial 7	2022.2.2	60.10157166
0.7	400	unexp	1	5	17	2	166.0334372	167.0171295	167.0171295	167.0334717	space	0.6559156	168.3985785	168.715603	168.715603	168.715603	150	18	"[14.757660900009796, 3.497444099979475, 4.328392499999609, 3.927760999999009, 10.766770799993537, 6.737027299997862, 9.850475099985488, 3.2098986000055447, 3.489623199973721, 1.4319361999514513, 4.888519899977837, 2.1293566999956965, 2.9275343000190333, 3.095291699981317, 3.1331795000005513, 4.370795299997553, 2.834529699990526, 15.936578599968925]"	"[14.757675100001507, 3.4974542999989353, 4.32840329996543, 3.9277719000237994, 10.76678050000919, 6.737040099978913, 9.850486399955116, 3.2099119999911636, 3.4896329999901354, 1.4319467999739572, 4.888528199982829, 2.129367900022771, 2.9275459999917075, 3.0953026000061072, 3.1331902000238188, 4.37080109998351, 2.834541000018362, 15.93658909999067]"	168.715603	661317	1	2022-11-10_17h48.41.895	Tutorial 7	2022.2.2	60.10157166
0.7	1000	exp	1	6	18	5	184.6393879	185.6380179	185.6380179	185.6553079	space	0.8720071	187.2366985	187.5497004	187.5497004	187.5497004	200	19	"[14.757660900009796, 3.497444099979475, 4.328392499999609, 3.927760999999009, 10.766770799993537, 6.737027299997862, 9.850475099985488, 3.2098986000055447, 3.489623199973721, 1.4319361999514513, 4.888519899977837, 2.1293566999956965, 2.9275343000190333, 3.095291699981317, 3.1331795000005513, 4.370795299997553, 2.834529699990526, 15.936578599968925, 3.8224124999833293]"	"[14.757675100001507, 3.4974542999989353, 4.32840329996543, 3.9277719000237994, 10.76678050000919, 6.737040099978913, 9.850486399955116, 3.2099119999911636, 3.4896329999901354, 1.4319467999739572, 4.888528199982829, 2.129367900022771, 2.9275459999917075, 3.0953026000061072, 3.1331902000238188, 4.37080109998351, 2.834541000018362, 15.93658909999067, 3.8224197999807075]"	187.5497004	661317	1	2022-11-10_17h48.41.895	Tutorial 7	2022.2.2	60.10157166
0.4	1000	exp	1	7	19	4	191.36167	192.3605909	192.3605909	192.3771748	space	0.8476011	193.626768	193.9383551	193.9383551	193.9383551	30	20	"[14.757660900009796, 3.497444099979475, 4.328392499999609, 3.927760999999009, 10.766770799993537, 6.737027299997862, 9.850475099985488, 3.2098986000055447, 3.489623199973721, 1.4319361999514513, 4.888519899977837, 2.1293566999956965, 2.9275343000190333, 3.095291699981317, 3.1331795000005513, 4.370795299997553, 2.834529699990526, 15.936578599968925, 3.8224124999833293, 9.164043600030709]"	"[14.757675100001507, 3.4974542999989353, 4.32840329996543, 3.9277719000237994, 10.76678050000919, 6.737040099978913, 9.850486399955116, 3.2099119999911636, 3.4896329999901354, 1.4319467999739572, 4.888528199982829, 2.129367900022771, 2.9275459999917075, 3.0953026000061072, 3.1331902000238188, 4.37080109998351, 2.834541000018362, 15.93658909999067, 3.8224197999807075, 9.164055700006429]"	193.9383551	661317	1	2022-11-10_17h48.41.895	Tutorial 7	2022.2.2	60.10157166
0.4	1000	exp	1	8	20	7	203.094404	204.093154	204.093154	204.1108378	space	1.7467187	206.2568401	206.5722222	206.5722222	206.5722222	100	21	"[14.757660900009796, 3.497444099979475, 4.328392499999609, 3.927760999999009, 10.766770799993537, 6.737027299997862, 9.850475099985488, 3.2098986000055447, 3.489623199973721, 1.4319361999514513, 4.888519899977837, 2.1293566999956965, 2.9275343000190333, 3.095291699981317, 3.1331795000005513, 4.370795299997553, 2.834529699990526, 15.936578599968925, 3.8224124999833293, 9.164043600030709, 3.7241023000096902]"	"[14.757675100001507, 3.4974542999989353, 4.32840329996543, 3.9277719000237994, 10.76678050000919, 6.737040099978913, 9.850486399955116, 3.2099119999911636, 3.4896329999901354, 1.4319467999739572, 4.888528199982829, 2.129367900022771, 2.9275459999917075, 3.0953026000061072, 3.1331902000238188, 4.37080109998351, 2.834541000018362, 15.93658909999067, 3.8224197999807075, 9.164055700006429, 3.724114099983126]"		661317	1	2022-11-10_17h48.41.895	Tutorial 7	2022.2.2	60.10157166
0.7	1000	exp	1	9	21	11	210.2833635	211.2825391	211.2825391	211.2989877	space	0.8843541	212.8941895	213.1997903	213.1997903	213.1997903	150	22	"[14.757660900009796, 3.497444099979475, 4.328392499999609, 3.927760999999009, 10.766770799993537, 6.737027299997862, 9.850475099985488, 3.2098986000055447, 3.489623199973721, 1.4319361999514513, 4.888519899977837, 2.1293566999956965, 2.9275343000190333, 3.095291699981317, 3.1331795000005513, 4.370795299997553, 2.834529699990526, 15.936578599968925, 3.8224124999833293, 9.164043600030709, 3.7241023000096902, 6.361510700022336]"	"[14.757675100001507, 3.4974542999989353, 4.32840329996543, 3.9277719000237994, 10.76678050000919, 6.737040099978913, 9.850486399955116, 3.2099119999911636, 3.4896329999901354, 1.4319467999739572, 4.888528199982829, 2.129367900022771, 2.9275459999917075, 3.0953026000061072, 3.1331902000238188, 4.37080109998351, 2.834541000018362, 15.93658909999067, 3.8224197999807075, 9.164055700006429, 3.724114099983126, 6.36152169998968]"	213.1997903	661317	1	2022-11-10_17h48.41.895	Tutorial 7	2022.2.2	60.10157166
0.1	1000	exp	1	10	22	9	219.5521414	220.5510646	220.5510646	220.567781	space	0.7069032	221.3832023	221.69216	221.69216	221.69216	0	23	"[14.757660900009796, 3.497444099979475, 4.328392499999609, 3.927760999999009, 10.766770799993537, 6.737027299997862, 9.850475099985488, 3.2098986000055447, 3.489623199973721, 1.4319361999514513, 4.888519899977837, 2.1293566999956965, 2.9275343000190333, 3.095291699981317, 3.1331795000005513, 4.370795299997553, 2.834529699990526, 15.936578599968925, 3.8224124999833293, 9.164043600030709, 3.7241023000096902, 6.361510700022336, 2.296456500014756]"	"[14.757675100001507, 3.4974542999989353, 4.32840329996543, 3.9277719000237994, 10.76678050000919, 6.737040099978913, 9.850486399955116, 3.2099119999911636, 3.4896329999901354, 1.4319467999739572, 4.888528199982829, 2.129367900022771, 2.9275459999917075, 3.0953026000061072, 3.1331902000238188, 4.37080109998351, 2.834541000018362, 15.93658909999067, 3.8224197999807075, 9.164055700006429, 3.724114099983126, 6.36152169998968, 2.29646819998743]"		661317	1	2022-11-10_17h48.41.895	Tutorial 7	2022.2.2	60.10157166
0.1	1000	exp	1	11	23	6	223.9786283	224.9779907	224.9779907	224.9779907	space	0.6283718	225.7267458	226.0370108	226.0370108	226.0370108	0	24	"[14.757660900009796, 3.497444099979475, 4.328392499999609, 3.927760999999009, 10.766770799993537, 6.737027299997862, 9.850475099985488, 3.2098986000055447, 3.489623199973721, 1.4319361999514513, 4.888519899977837, 2.1293566999956965, 2.9275343000190333, 3.095291699981317, 3.1331795000005513, 4.370795299997553, 2.834529699990526, 15.936578599968925, 3.8224124999833293, 9.164043600030709, 3.7241023000096902, 6.361510700022336, 2.296456500014756, 2.074573500023689]"	"[14.757675100001507, 3.4974542999989353, 4.32840329996543, 3.9277719000237994, 10.76678050000919, 6.737040099978913, 9.850486399955116, 3.2099119999911636, 3.4896329999901354, 1.4319467999739572, 4.888528199982829, 2.129367900022771, 2.9275459999917075, 3.0953026000061072, 3.1331902000238188, 4.37080109998351, 2.834541000018362, 15.93658909999067, 3.8224197999807075, 9.164055700006429, 3.724114099983126, 6.36152169998968, 2.29646819998743, 2.074584699992556]"	226.0370108	661317	1	2022-11-10_17h48.41.895	Tutorial 7	2022.2.2	60.10157166
0.7	1000	exp	2	0	24	5	228.105455	229.1045865	229.1045865	229.1213823	space	0.7977676	230.6190931	230.9310959	230.9310959	230.9310959	200	25	"[14.757660900009796, 3.497444099979475, 4.328392499999609, 3.927760999999009, 10.766770799993537, 6.737027299997862, 9.850475099985488, 3.2098986000055447, 3.489623199973721, 1.4319361999514513, 4.888519899977837, 2.1293566999956965, 2.9275343000190333, 3.095291699981317, 3.1331795000005513, 4.370795299997553, 2.834529699990526, 15.936578599968925, 3.8224124999833293, 9.164043600030709, 3.7241023000096902, 6.361510700022336, 2.296456500014756, 2.074573500023689, 2.814022600010503]"	"[14.757675100001507, 3.4974542999989353, 4.32840329996543, 3.9277719000237994, 10.76678050000919, 6.737040099978913, 9.850486399955116, 3.2099119999911636, 3.4896329999901354, 1.4319467999739572, 4.888528199982829, 2.129367900022771, 2.9275459999917075, 3.0953026000061072, 3.1331902000238188, 4.37080109998351, 2.834541000018362, 15.93658909999067, 3.8224197999807075, 9.164055700006429, 3.724114099983126, 6.36152169998968, 2.29646819998743, 2.074584699992556, 2.8140333000337705]"		661317	1	2022-11-10_17h48.41.895	Tutorial 7	2022.2.2	60.10157166
0.4	400	unexp	2	1	25	1	233.7456862	234.7294617	234.7294617	234.7460143	space	1.2431225	236.3933976	236.6975642	236.6975642	236.6975642	100	26	"[14.757660900009796, 3.497444099979475, 4.328392499999609, 3.927760999999009, 10.766770799993537, 6.737027299997862, 9.850475099985488, 3.2098986000055447, 3.489623199973721, 1.4319361999514513, 4.888519899977837, 2.1293566999956965, 2.9275343000190333, 3.095291699981317, 3.1331795000005513, 4.370795299997553, 2.834529699990526, 15.936578599968925, 3.8224124999833293, 9.164043600030709, 3.7241023000096902, 6.361510700022336, 2.296456500014756, 2.074573500023689, 2.814022600010503, 6.455469599983189]"	"[14.757675100001507, 3.4974542999989353, 4.32840329996543, 3.9277719000237994, 10.76678050000919, 6.737040099978913, 9.850486399955116, 3.2099119999911636, 3.4896329999901354, 1.4319467999739572, 4.888528199982829, 2.129367900022771, 2.9275459999917075, 3.0953026000061072, 3.1331902000238188, 4.37080109998351, 2.834541000018362, 15.93658909999067, 3.8224197999807075, 9.164055700006429, 3.724114099983126, 6.36152169998968, 2.29646819998743, 2.074584699992556, 2.8140333000337705, 6.455479299998842]"		661317	1	2022-11-10_17h48.41.895	Tutorial 7	2022.2.2	60.10157166
0.4	1000	exp	2	2	26	4	243.1483689	244.1482864	244.1482864	244.1482864	space	0.7539839	245.3298835	245.6416267	245.6416267	245.6416267	100	27	"[14.757660900009796, 3.497444099979475, 4.328392499999609, 3.927760999999009, 10.766770799993537, 6.737027299997862, 9.850475099985488, 3.2098986000055447, 3.489623199973721, 1.4319361999514513, 4.888519899977837, 2.1293566999956965, 2.9275343000190333, 3.095291699981317, 3.1331795000005513, 4.370795299997553, 2.834529699990526, 15.936578599968925, 3.8224124999833293, 9.164043600030709, 3.7241023000096902, 6.361510700022336, 2.296456500014756, 2.074573500023689, 2.814022600010503, 6.455469599983189, 9.664939899987075]"	"[14.757675100001507, 3.4974542999989353, 4.32840329996543, 3.9277719000237994, 10.76678050000919, 6.737040099978913, 9.850486399955116, 3.2099119999911636, 3.4896329999901354, 1.4319467999739572, 4.888528199982829, 2.129367900022771, 2.9275459999917075, 3.0953026000061072, 3.1331902000238188, 4.37080109998351, 2.834541000018362, 15.93658909999067, 3.8224197999807075, 9.164055700006429, 3.724114099983126, 6.36152169998968, 2.29646819998743, 2.074584699992556, 2.8140333000337705, 6.455479299998842, 9.664949800004251]"	245.6416267	661317	1	2022-11-10_17h48.41.895	Tutorial 7	2022.2.2	60.10157166
0.1	400	unexp	2	3	27	0	255.2967932	256.295736	256.295736	256.3123162	space	0.9923784	257.4107061	257.7308726	257.7308726	257.7308726	0	28	"[14.757660900009796, 3.497444099979475, 4.328392499999609, 3.927760999999009, 10.766770799993537, 6.737027299997862, 9.850475099985488, 3.2098986000055447, 3.489623199973721, 1.4319361999514513, 4.888519899977837, 2.1293566999956965, 2.9275343000190333, 3.095291699981317, 3.1331795000005513, 4.370795299997553, 2.834529699990526, 15.936578599968925, 3.8224124999833293, 9.164043600030709, 3.7241023000096902, 6.361510700022336, 2.296456500014756, 2.074573500023689, 2.814022600010503, 6.455469599983189, 9.664939899987075, 4.071955899999011]"	"[14.757675100001507, 3.4974542999989353, 4.32840329996543, 3.9277719000237994, 10.76678050000919, 6.737040099978913, 9.850486399955116, 3.2099119999911636, 3.4896329999901354, 1.4319467999739572, 4.888528199982829, 2.129367900022771, 2.9275459999917075, 3.0953026000061072, 3.1331902000238188, 4.37080109998351, 2.834541000018362, 15.93658909999067, 3.8224197999807075, 9.164055700006429, 3.724114099983126, 6.36152169998968, 2.29646819998743, 2.074584699992556, 2.8140333000337705, 6.455479299998842, 9.664949800004251, 4.071963399997912]"		661317	1	2022-11-10_17h48.41.895	Tutorial 7	2022.2.2	60.10157166
0.7	400	unexp	2	4	28	2	261.7860197	262.7858512	262.7858512	262.7858512	space	1.0581537	264.5665377	264.8795347	264.8795347	264.8795347	200	29	"[14.757660900009796, 3.497444099979475, 4.328392499999609, 3.927760999999009, 10.766770799993537, 6.737027299997862, 9.850475099985488, 3.2098986000055447, 3.489623199973721, 1.4319361999514513, 4.888519899977837, 2.1293566999956965, 2.9275343000190333, 3.095291699981317, 3.1331795000005513, 4.370795299997553, 2.834529699990526, 15.936578599968925, 3.8224124999833293, 9.164043600030709, 3.7241023000096902, 6.361510700022336, 2.296456500014756, 2.074573500023689, 2.814022600010503, 6.455469599983189, 9.664939899987075, 4.071955899999011, 5.575947800010908]"	"[14.757675100001507, 3.4974542999989353, 4.32840329996543, 3.9277719000237994, 10.76678050000919, 6.737040099978913, 9.850486399955116, 3.2099119999911636, 3.4896329999901354, 1.4319467999739572, 4.888528199982829, 2.129367900022771, 2.9275459999917075, 3.0953026000061072, 3.1331902000238188, 4.37080109998351, 2.834541000018362, 15.93658909999067, 3.8224197999807075, 9.164055700006429, 3.724114099983126, 6.36152169998968, 2.29646819998743, 2.074584699992556, 2.8140333000337705, 6.455479299998842, 9.664949800004251, 4.071963399997912, 5.5759596999851055]"	264.8795347	661317	1	2022-11-10_17h48.41.895	Tutorial 7	2022.2.2	60.10157166
0.1	1000	exp	2	5	29	3	270.4400801	271.4388825	271.4388825	271.4388825	space	1.3825232	272.9372903	273.2506105	273.2506105	273.2506105	50	30	"[14.757660900009796, 3.497444099979475, 4.328392499999609, 3.927760999999009, 10.766770799993537, 6.737027299997862, 9.850475099985488, 3.2098986000055447, 3.489623199973721, 1.4319361999514513, 4.888519899977837, 2.1293566999956965, 2.9275343000190333, 3.095291699981317, 3.1331795000005513, 4.370795299997553, 2.834529699990526, 15.936578599968925, 3.8224124999833293, 9.164043600030709, 3.7241023000096902, 6.361510700022336, 2.296456500014756, 2.074573500023689, 2.814022600010503, 6.455469599983189, 9.664939899987075, 4.071955899999011, 5.575947800010908, 6.435373600048479]"	"[14.757675100001507, 3.4974542999989353, 4.32840329996543, 3.9277719000237994, 10.76678050000919, 6.737040099978913, 9.850486399955116, 3.2099119999911636, 3.4896329999901354, 1.4319467999739572, 4.888528199982829, 2.129367900022771, 2.9275459999917075, 3.0953026000061072, 3.1331902000238188, 4.37080109998351, 2.834541000018362, 15.93658909999067, 3.8224197999807075, 9.164055700006429, 3.724114099983126, 6.36152169998968, 2.29646819998743, 2.074584699992556, 2.8140333000337705, 6.455479299998842, 9.664949800004251, 4.071963399997912, 5.5759596999851055, 6.435389199992642]"		661317	1	2022-11-10_17h48.41.895	Tutorial 7	2022.2.2	60.10157166
0.4	1000	exp	2	6	30	7	279.6755744	280.674632	280.674632	280.6913634	space	0.4294265	281.5236249	281.8328314	281.8328314	281.8328314	50	31	"[14.757660900009796, 3.497444099979475, 4.328392499999609, 3.927760999999009, 10.766770799993537, 6.737027299997862, 9.850475099985488, 3.2098986000055447, 3.489623199973721, 1.4319361999514513, 4.888519899977837, 2.1293566999956965, 2.9275343000190333, 3.095291699981317, 3.1331795000005513, 4.370795299997553, 2.834529699990526, 15.936578599968925, 3.8224124999833293, 9.164043600030709, 3.7241023000096902, 6.361510700022336, 2.296456500014756, 2.074573500023689, 2.814022600010503, 6.455469599983189, 9.664939899987075, 4.071955899999011, 5.575947800010908, 6.435373600048479, 4.471979899972212]"	"[14.757675100001507, 3.4974542999989353, 4.32840329996543, 3.9277719000237994, 10.76678050000919, 6.737040099978913, 9.850486399955116, 3.2099119999911636, 3.4896329999901354, 1.4319467999739572, 4.888528199982829, 2.129367900022771, 2.9275459999917075, 3.0953026000061072, 3.1331902000238188, 4.37080109998351, 2.834541000018362, 15.93658909999067, 3.8224197999807075, 9.164055700006429, 3.724114099983126, 6.36152169998968, 2.29646819998743, 2.074584699992556, 2.8140333000337705, 6.455479299998842, 9.664949800004251, 4.071963399997912, 5.5759596999851055, 6.435389199992642, 4.471987299970351]"		661317	1	2022-11-10_17h48.41.895	Tutorial 7	2022.2.2	60.10157166
0.4	1000	exp	2	7	31	10	286.2984327	287.2986467	287.2986467	287.2986467	space	0.8681782	288.5945477	288.8948019	288.8948019	288.8948019	150	32	"[14.757660900009796, 3.497444099979475, 4.328392499999609, 3.927760999999009, 10.766770799993537, 6.737027299997862, 9.850475099985488, 3.2098986000055447, 3.489623199973721, 1.4319361999514513, 4.888519899977837, 2.1293566999956965, 2.9275343000190333, 3.095291699981317, 3.1331795000005513, 4.370795299997553, 2.834529699990526, 15.936578599968925, 3.8224124999833293, 9.164043600030709, 3.7241023000096902, 6.361510700022336, 2.296456500014756, 2.074573500023689, 2.814022600010503, 6.455469599983189, 9.664939899987075, 4.071955899999011, 5.575947800010908, 6.435373600048479, 4.471979899972212, 7.389242300007027]"	"[14.757675100001507, 3.4974542999989353, 4.32840329996543, 3.9277719000237994, 10.76678050000919, 6.737040099978913, 9.850486399955116, 3.2099119999911636, 3.4896329999901354, 1.4319467999739572, 4.888528199982829, 2.129367900022771, 2.9275459999917075, 3.0953026000061072, 3.1331902000238188, 4.37080109998351, 2.834541000018362, 15.93658909999067, 3.8224197999807075, 9.164055700006429, 3.724114099983126, 6.36152169998968, 2.29646819998743, 2.074584699992556, 2.8140333000337705, 6.455479299998842, 9.664949800004251, 4.071963399997912, 5.5759596999851055, 6.435389199992642, 4.471987299970351, 7.389251800021157]"	288.8948019	661317	1	2022-11-10_17h48.41.895	Tutorial 7	2022.2.2	60.10157166
0.7	1000	exp	2	8	32	11	296.2833535	297.2817795	297.2817795	297.2981444	space	0.6175588	298.6301448	298.9385575	298.9385575	298.9385575	200	33	"[14.757660900009796, 3.497444099979475, 4.328392499999609, 3.927760999999009, 10.766770799993537, 6.737027299997862, 9.850475099985488, 3.2098986000055447, 3.489623199973721, 1.4319361999514513, 4.888519899977837, 2.1293566999956965, 2.9275343000190333, 3.095291699981317, 3.1331795000005513, 4.370795299997553, 2.834529699990526, 15.936578599968925, 3.8224124999833293, 9.164043600030709, 3.7241023000096902, 6.361510700022336, 2.296456500014756, 2.074573500023689, 2.814022600010503, 6.455469599983189, 9.664939899987075, 4.071955899999011, 5.575947800010908, 6.435373600048479, 4.471979899972212, 7.389242300007027, 4.17206139996415]"	"[14.757675100001507, 3.4974542999989353, 4.32840329996543, 3.9277719000237994, 10.76678050000919, 6.737040099978913, 9.850486399955116, 3.2099119999911636, 3.4896329999901354, 1.4319467999739572, 4.888528199982829, 2.129367900022771, 2.9275459999917075, 3.0953026000061072, 3.1331902000238188, 4.37080109998351, 2.834541000018362, 15.93658909999067, 3.8224197999807075, 9.164055700006429, 3.724114099983126, 6.36152169998968, 2.29646819998743, 2.074584699992556, 2.8140333000337705, 6.455479299998842, 9.664949800004251, 4.071963399997912, 5.5759596999851055, 6.435389199992642, 4.471987299970351, 7.389251800021157, 4.172079099982511]"		661317	1	2022-11-10_17h48.41.895	Tutorial 7	2022.2.2	60.10157166
0.1	1000	exp	2	9	33	9	303.1068083	304.1051753	304.1051753	304.1221399	space	1.7363347	305.9695155	306.2793712	306.2793712	306.2793712	0	34	"[14.757660900009796, 3.497444099979475, 4.328392499999609, 3.927760999999009, 10.766770799993537, 6.737027299997862, 9.850475099985488, 3.2098986000055447, 3.489623199973721, 1.4319361999514513, 4.888519899977837, 2.1293566999956965, 2.9275343000190333, 3.095291699981317, 3.1331795000005513, 4.370795299997553, 2.834529699990526, 15.936578599968925, 3.8224124999833293, 9.164043600030709, 3.7241023000096902, 6.361510700022336, 2.296456500014756, 2.074573500023689, 2.814022600010503, 6.455469599983189, 9.664939899987075, 4.071955899999011, 5.575947800010908, 6.435373600048479, 4.471979899972212, 7.389242300007027, 4.17206139996415, 2.4797455000225455]"	"[14.757675100001507, 3.4974542999989353, 4.32840329996543, 3.9277719000237994, 10.76678050000919, 6.737040099978913, 9.850486399955116, 3.2099119999911636, 3.4896329999901354, 1.4319467999739572, 4.888528199982829, 2.129367900022771, 2.9275459999917075, 3.0953026000061072, 3.1331902000238188, 4.37080109998351, 2.834541000018362, 15.93658909999067, 3.8224197999807075, 9.164055700006429, 3.724114099983126, 6.36152169998968, 2.29646819998743, 2.074584699992556, 2.8140333000337705, 6.455479299998842, 9.664949800004251, 4.071963399997912, 5.5759596999851055, 6.435389199992642, 4.471987299970351, 7.389251800021157, 4.172079099982511, 2.479756199987605]"		661317	1	2022-11-10_17h48.41.895	Tutorial 7	2022.2.2	60.10157166
0.1	1000	exp	2	10	34	6	308.7473054	309.7465014	309.7465014	309.7465014	space	0.6827382	310.5458501	310.8577092	310.8577092	310.8577092	0	35	"[14.757660900009796, 3.497444099979475, 4.328392499999609, 3.927760999999009, 10.766770799993537, 6.737027299997862, 9.850475099985488, 3.2098986000055447, 3.489623199973721, 1.4319361999514513, 4.888519899977837, 2.1293566999956965, 2.9275343000190333, 3.095291699981317, 3.1331795000005513, 4.370795299997553, 2.834529699990526, 15.936578599968925, 3.8224124999833293, 9.164043600030709, 3.7241023000096902, 6.361510700022336, 2.296456500014756, 2.074573500023689, 2.814022600010503, 6.455469599983189, 9.664939899987075, 4.071955899999011, 5.575947800010908, 6.435373600048479, 4.471979899972212, 7.389242300007027, 4.17206139996415, 2.4797455000225455, 2.529603099974338]"	"[14.757675100001507, 3.4974542999989353, 4.32840329996543, 3.9277719000237994, 10.76678050000919, 6.737040099978913, 9.850486399955116, 3.2099119999911636, 3.4896329999901354, 1.4319467999739572, 4.888528199982829, 2.129367900022771, 2.9275459999917075, 3.0953026000061072, 3.1331902000238188, 4.37080109998351, 2.834541000018362, 15.93658909999067, 3.8224197999807075, 9.164055700006429, 3.724114099983126, 6.36152169998968, 2.29646819998743, 2.074584699992556, 2.8140333000337705, 6.455479299998842, 9.664949800004251, 4.071963399997912, 5.5759596999851055, 6.435389199992642, 4.471987299970351, 7.389251800021157, 4.172079099982511, 2.479756199987605, 2.5296143000014126]"	310.8577092	661317	1	2022-11-10_17h48.41.895	Tutorial 7	2022.2.2	60.10157166
0.7	1000	exp	2	11	35	8	313.3740151	314.3731428	314.3731428	314.3900317	space	1.1468198	316.2376873	316.5531844	316.5531844	316.5531844	200	36	"[14.757660900009796, 3.497444099979475, 4.328392499999609, 3.927760999999009, 10.766770799993537, 6.737027299997862, 9.850475099985488, 3.2098986000055447, 3.489623199973721, 1.4319361999514513, 4.888519899977837, 2.1293566999956965, 2.9275343000190333, 3.095291699981317, 3.1331795000005513, 4.370795299997553, 2.834529699990526, 15.936578599968925, 3.8224124999833293, 9.164043600030709, 3.7241023000096902, 6.361510700022336, 2.296456500014756, 2.074573500023689, 2.814022600010503, 6.455469599983189, 9.664939899987075, 4.071955899999011, 5.575947800010908, 6.435373600048479, 4.471979899972212, 7.389242300007027, 4.17206139996415, 2.4797455000225455, 2.529603099974338, 4.48668460000772]"	"[14.757675100001507, 3.4974542999989353, 4.32840329996543, 3.9277719000237994, 10.76678050000919, 6.737040099978913, 9.850486399955116, 3.2099119999911636, 3.4896329999901354, 1.4319467999739572, 4.888528199982829, 2.129367900022771, 2.9275459999917075, 3.0953026000061072, 3.1331902000238188, 4.37080109998351, 2.834541000018362, 15.93658909999067, 3.8224197999807075, 9.164055700006429, 3.724114099983126, 6.36152169998968, 2.29646819998743, 2.074584699992556, 2.8140333000337705, 6.455479299998842, 9.664949800004251, 4.071963399997912, 5.5759596999851055, 6.435389199992642, 4.471987299970351, 7.389251800021157, 4.172079099982511, 2.479756199987605, 2.5296143000014126, 4.486699000000954]"	316.5531844	661317	1	2022-11-10_17h48.41.895	Tutorial 7	2022.2.2	60.10157166
0.4	1000	exp	3	0	36	4	321.029138	322.0262111	322.0262111	322.0262111	space	1.4391025	323.8915512	324.2041988	324.2041988	324.2041988	150	37	"[14.757660900009796, 3.497444099979475, 4.328392499999609, 3.927760999999009, 10.766770799993537, 6.737027299997862, 9.850475099985488, 3.2098986000055447, 3.489623199973721, 1.4319361999514513, 4.888519899977837, 2.1293566999956965, 2.9275343000190333, 3.095291699981317, 3.1331795000005513, 4.370795299997553, 2.834529699990526, 15.936578599968925, 3.8224124999833293, 9.164043600030709, 3.7241023000096902, 6.361510700022336, 2.296456500014756, 2.074573500023689, 2.814022600010503, 6.455469599983189, 9.664939899987075, 4.071955899999011, 5.575947800010908, 6.435373600048479, 4.471979899972212, 7.389242300007027, 4.17206139996415, 2.4797455000225455, 2.529603099974338, 4.48668460000772, 3.4568576000165194]"	"[14.757675100001507, 3.4974542999989353, 4.32840329996543, 3.9277719000237994, 10.76678050000919, 6.737040099978913, 9.850486399955116, 3.2099119999911636, 3.4896329999901354, 1.4319467999739572, 4.888528199982829, 2.129367900022771, 2.9275459999917075, 3.0953026000061072, 3.1331902000238188, 4.37080109998351, 2.834541000018362, 15.93658909999067, 3.8224197999807075, 9.164055700006429, 3.724114099983126, 6.36152169998968, 2.29646819998743, 2.074584699992556, 2.8140333000337705, 6.455479299998842, 9.664949800004251, 4.071963399997912, 5.5759596999851055, 6.435389199992642, 4.471987299970351, 7.389251800021157, 4.172079099982511, 2.479756199987605, 2.5296143000014126, 4.486699000000954, 3.4568705999990925]"	324.2041988	661317	1	2022-11-10_17h48.41.895	Tutorial 7	2022.2.2	60.10157166
0.7	1000	exp	3	1	37	5	327.6521737	328.6512446	328.6512446	328.6675964	space	0.7972463	330.1654114	330.4801882	330.4801882	330.4801882	230	38	"[14.757660900009796, 3.497444099979475, 4.328392499999609, 3.927760999999009, 10.766770799993537, 6.737027299997862, 9.850475099985488, 3.2098986000055447, 3.489623199973721, 1.4319361999514513, 4.888519899977837, 2.1293566999956965, 2.9275343000190333, 3.095291699981317, 3.1331795000005513, 4.370795299997553, 2.834529699990526, 15.936578599968925, 3.8224124999833293, 9.164043600030709, 3.7241023000096902, 6.361510700022336, 2.296456500014756, 2.074573500023689, 2.814022600010503, 6.455469599983189, 9.664939899987075, 4.071955899999011, 5.575947800010908, 6.435373600048479, 4.471979899972212, 7.389242300007027, 4.17206139996415, 2.4797455000225455, 2.529603099974338, 4.48668460000772, 3.4568576000165194, 9.46735820005415]"	"[14.757675100001507, 3.4974542999989353, 4.32840329996543, 3.9277719000237994, 10.76678050000919, 6.737040099978913, 9.850486399955116, 3.2099119999911636, 3.4896329999901354, 1.4319467999739572, 4.888528199982829, 2.129367900022771, 2.9275459999917075, 3.0953026000061072, 3.1331902000238188, 4.37080109998351, 2.834541000018362, 15.93658909999067, 3.8224197999807075, 9.164055700006429, 3.724114099983126, 6.36152169998968, 2.29646819998743, 2.074584699992556, 2.8140333000337705, 6.455479299998842, 9.664949800004251, 4.071963399997912, 5.5759596999851055, 6.435389199992642, 4.471987299970351, 7.389251800021157, 4.172079099982511, 2.479756199987605, 2.5296143000014126, 4.486699000000954, 3.4568705999990925, 9.467368600016925]"	330.4801882	661317	1	2022-11-10_17h48.41.895	Tutorial 7	2022.2.2	60.10157166
0.1	1000	exp	3	2	38	9	339.9324361	340.9311118	340.9311118	340.9473415	space	0.613365	341.6631464	341.9746536	341.9746536	341.9746536	0	39	"[14.757660900009796, 3.497444099979475, 4.328392499999609, 3.927760999999009, 10.766770799993537, 6.737027299997862, 9.850475099985488, 3.2098986000055447, 3.489623199973721, 1.4319361999514513, 4.888519899977837, 2.1293566999956965, 2.9275343000190333, 3.095291699981317, 3.1331795000005513, 4.370795299997553, 2.834529699990526, 15.936578599968925, 3.8224124999833293, 9.164043600030709, 3.7241023000096902, 6.361510700022336, 2.296456500014756, 2.074573500023689, 2.814022600010503, 6.455469599983189, 9.664939899987075, 4.071955899999011, 5.575947800010908, 6.435373600048479, 4.471979899972212, 7.389242300007027, 4.17206139996415, 2.4797455000225455, 2.529603099974338, 4.48668460000772, 3.4568576000165194, 9.46735820005415, 2.2302933000028133]"	"[14.757675100001507, 3.4974542999989353, 4.32840329996543, 3.9277719000237994, 10.76678050000919, 6.737040099978913, 9.850486399955116, 3.2099119999911636, 3.4896329999901354, 1.4319467999739572, 4.888528199982829, 2.129367900022771, 2.9275459999917075, 3.0953026000061072, 3.1331902000238188, 4.37080109998351, 2.834541000018362, 15.93658909999067, 3.8224197999807075, 9.164055700006429, 3.724114099983126, 6.36152169998968, 2.29646819998743, 2.074584699992556, 2.8140333000337705, 6.455479299998842, 9.664949800004251, 4.071963399997912, 5.5759596999851055, 6.435389199992642, 4.471987299970351, 7.389251800021157, 4.172079099982511, 2.479756199987605, 2.5296143000014126, 4.486699000000954, 3.4568705999990925, 9.467368600016925, 2.230304599972442]"		661317	1	2022-11-10_17h48.41.895	Tutorial 7	2022.2.2	60.10157166
0.1	1000	exp	3	3	39	6	344.1929792	345.1918673	345.1918673	345.2084533	space	0.6891176	346.0083485	346.3086732	346.3086732	346.3086732	0	40	"[14.757660900009796, 3.497444099979475, 4.328392499999609, 3.927760999999009, 10.766770799993537, 6.737027299997862, 9.850475099985488, 3.2098986000055447, 3.489623199973721, 1.4319361999514513, 4.888519899977837, 2.1293566999956965, 2.9275343000190333, 3.095291699981317, 3.1331795000005513, 4.370795299997553, 2.834529699990526, 15.936578599968925, 3.8224124999833293, 9.164043600030709, 3.7241023000096902, 6.361510700022336, 2.296456500014756, 2.074573500023689, 2.814022600010503, 6.455469599983189, 9.664939899987075, 4.071955899999011, 5.575947800010908, 6.435373600048479, 4.471979899972212, 7.389242300007027, 4.17206139996415, 2.4797455000225455, 2.529603099974338, 4.48668460000772, 3.4568576000165194, 9.46735820005415, 2.2302933000028133, 2.0767266000038944]"	"[14.757675100001507, 3.4974542999989353, 4.32840329996543, 3.9277719000237994, 10.76678050000919, 6.737040099978913, 9.850486399955116, 3.2099119999911636, 3.4896329999901354, 1.4319467999739572, 4.888528199982829, 2.129367900022771, 2.9275459999917075, 3.0953026000061072, 3.1331902000238188, 4.37080109998351, 2.834541000018362, 15.93658909999067, 3.8224197999807075, 9.164055700006429, 3.724114099983126, 6.36152169998968, 2.29646819998743, 2.074584699992556, 2.8140333000337705, 6.455479299998842, 9.664949800004251, 4.071963399997912, 5.5759596999851055, 6.435389199992642, 4.471987299970351, 7.389251800021157, 4.172079099982511, 2.479756199987605, 2.5296143000014126, 4.486699000000954, 3.4568705999990925, 9.467368600016925, 2.230304599972442, 2.076731200038921]"		661317	1	2022-11-10_17h48.41.895	Tutorial 7	2022.2.2	60.10157166
0.4	1000	exp	3	4	40	7	348.385371	349.3687637	349.3687637	349.3855495	space	1.3394028	351.132638	351.4436382	351.4436382	351.4436382	150	41	"[14.757660900009796, 3.497444099979475, 4.328392499999609, 3.927760999999009, 10.766770799993537, 6.737027299997862, 9.850475099985488, 3.2098986000055447, 3.489623199973721, 1.4319361999514513, 4.888519899977837, 2.1293566999956965, 2.9275343000190333, 3.095291699981317, 3.1331795000005513, 4.370795299997553, 2.834529699990526, 15.936578599968925, 3.8224124999833293, 9.164043600030709, 3.7241023000096902, 6.361510700022336, 2.296456500014756, 2.074573500023689, 2.814022600010503, 6.455469599983189, 9.664939899987075, 4.071955899999011, 5.575947800010908, 6.435373600048479, 4.471979899972212, 7.389242300007027, 4.17206139996415, 2.4797455000225455, 2.529603099974338, 4.48668460000772, 3.4568576000165194, 9.46735820005415, 2.2302933000028133, 2.0767266000038944, 3.6325028999708593]"	"[14.757675100001507, 3.4974542999989353, 4.32840329996543, 3.9277719000237994, 10.76678050000919, 6.737040099978913, 9.850486399955116, 3.2099119999911636, 3.4896329999901354, 1.4319467999739572, 4.888528199982829, 2.129367900022771, 2.9275459999917075, 3.0953026000061072, 3.1331902000238188, 4.37080109998351, 2.834541000018362, 15.93658909999067, 3.8224197999807075, 9.164055700006429, 3.724114099983126, 6.36152169998968, 2.29646819998743, 2.074584699992556, 2.8140333000337705, 6.455479299998842, 9.664949800004251, 4.071963399997912, 5.5759596999851055, 6.435389199992642, 4.471987299970351, 7.389251800021157, 4.172079099982511, 2.479756199987605, 2.5296143000014126, 4.486699000000954, 3.4568705999990925, 9.467368600016925, 2.230304599972442, 2.076731200038921, 3.6325108999735676]"	351.4436382	661317	1	2022-11-10_17h48.41.895	Tutorial 7	2022.2.2	60.10157166
0.4	400	unexp	3	5	41	1	355.0742002	356.0587905	356.0587905	356.0749882	space	0.7113134	357.1898968	357.5015272	357.5015272	357.5015272	50	42	"[14.757660900009796, 3.497444099979475, 4.328392499999609, 3.927760999999009, 10.766770799993537, 6.737027299997862, 9.850475099985488, 3.2098986000055447, 3.489623199973721, 1.4319361999514513, 4.888519899977837, 2.1293566999956965, 2.9275343000190333, 3.095291699981317, 3.1331795000005513, 4.370795299997553, 2.834529699990526, 15.936578599968925, 3.8224124999833293, 9.164043600030709, 3.7241023000096902, 6.361510700022336, 2.296456500014756, 2.074573500023689, 2.814022600010503, 6.455469599983189, 9.664939899987075, 4.071955899999011, 5.575947800010908, 6.435373600048479, 4.471979899972212, 7.389242300007027, 4.17206139996415, 2.4797455000225455, 2.529603099974338, 4.48668460000772, 3.4568576000165194, 9.46735820005415, 2.2302933000028133, 2.0767266000038944, 3.6325028999708593, 4.4905520000029355]"	"[14.757675100001507, 3.4974542999989353, 4.32840329996543, 3.9277719000237994, 10.76678050000919, 6.737040099978913, 9.850486399955116, 3.2099119999911636, 3.4896329999901354, 1.4319467999739572, 4.888528199982829, 2.129367900022771, 2.9275459999917075, 3.0953026000061072, 3.1331902000238188, 4.37080109998351, 2.834541000018362, 15.93658909999067, 3.8224197999807075, 9.164055700006429, 3.724114099983126, 6.36152169998968, 2.29646819998743, 2.074584699992556, 2.8140333000337705, 6.455479299998842, 9.664949800004251, 4.071963399997912, 5.5759596999851055, 6.435389199992642, 4.471987299970351, 7.389251800021157, 4.172079099982511, 2.479756199987605, 2.5296143000014126, 4.486699000000954, 3.4568705999990925, 9.467368600016925, 2.230304599972442, 2.076731200038921, 3.6325108999735676, 4.490570300025865]"		661317	1	2022-11-10_17h48.41.895	Tutorial 7	2022.2.2	60.10157166
0.7	400	unexp	3	6	42	2	361.9820899	362.9815279	362.9815279	362.9981372	space	0.9078804	364.6119386	364.9229069	364.9229069	364.9229069	250	43	"[14.757660900009796, 3.497444099979475, 4.328392499999609, 3.927760999999009, 10.766770799993537, 6.737027299997862, 9.850475099985488, 3.2098986000055447, 3.489623199973721, 1.4319361999514513, 4.888519899977837, 2.1293566999956965, 2.9275343000190333, 3.095291699981317, 3.1331795000005513, 4.370795299997553, 2.834529699990526, 15.936578599968925, 3.8224124999833293, 9.164043600030709, 3.7241023000096902, 6.361510700022336, 2.296456500014756, 2.074573500023689, 2.814022600010503, 6.455469599983189, 9.664939899987075, 4.071955899999011, 5.575947800010908, 6.435373600048479, 4.471979899972212, 7.389242300007027, 4.17206139996415, 2.4797455000225455, 2.529603099974338, 4.48668460000772, 3.4568576000165194, 9.46735820005415, 2.2302933000028133, 2.0767266000038944, 3.6325028999708593, 4.4905520000029355, 5.625217099965084]"	"[14.757675100001507, 3.4974542999989353, 4.32840329996543, 3.9277719000237994, 10.76678050000919, 6.737040099978913, 9.850486399955116, 3.2099119999911636, 3.4896329999901354, 1.4319467999739572, 4.888528199982829, 2.129367900022771, 2.9275459999917075, 3.0953026000061072, 3.1331902000238188, 4.37080109998351, 2.834541000018362, 15.93658909999067, 3.8224197999807075, 9.164055700006429, 3.724114099983126, 6.36152169998968, 2.29646819998743, 2.074584699992556, 2.8140333000337705, 6.455479299998842, 9.664949800004251, 4.071963399997912, 5.5759596999851055, 6.435389199992642, 4.471987299970351, 7.389251800021157, 4.172079099982511, 2.479756199987605, 2.5296143000014126, 4.486699000000954, 3.4568705999990925, 9.467368600016925, 2.230304599972442, 2.076731200038921, 3.6325108999735676, 4.490570300025865, 5.625229900004342]"	364.9229069	661317	1	2022-11-10_17h48.41.895	Tutorial 7	2022.2.2	60.10157166
0.7	1000	exp	3	7	43	8	370.5360489	371.5345004	371.5345004	371.5517936	space	0.5461579	372.7997239	373.1115739	373.1115739	373.1115739	240	44	"[14.757660900009796, 3.497444099979475, 4.328392499999609, 3.927760999999009, 10.766770799993537, 6.737027299997862, 9.850475099985488, 3.2098986000055447, 3.489623199973721, 1.4319361999514513, 4.888519899977837, 2.1293566999956965, 2.9275343000190333, 3.095291699981317, 3.1331795000005513, 4.370795299997553, 2.834529699990526, 15.936578599968925, 3.8224124999833293, 9.164043600030709, 3.7241023000096902, 6.361510700022336, 2.296456500014756, 2.074573500023689, 2.814022600010503, 6.455469599983189, 9.664939899987075, 4.071955899999011, 5.575947800010908, 6.435373600048479, 4.471979899972212, 7.389242300007027, 4.17206139996415, 2.4797455000225455, 2.529603099974338, 4.48668460000772, 3.4568576000165194, 9.46735820005415, 2.2302933000028133, 2.0767266000038944, 3.6325028999708593, 4.4905520000029355, 5.625217099965084, 7.366610400029458]"	"[14.757675100001507, 3.4974542999989353, 4.32840329996543, 3.9277719000237994, 10.76678050000919, 6.737040099978913, 9.850486399955116, 3.2099119999911636, 3.4896329999901354, 1.4319467999739572, 4.888528199982829, 2.129367900022771, 2.9275459999917075, 3.0953026000061072, 3.1331902000238188, 4.37080109998351, 2.834541000018362, 15.93658909999067, 3.8224197999807075, 9.164055700006429, 3.724114099983126, 6.36152169998968, 2.29646819998743, 2.074584699992556, 2.8140333000337705, 6.455479299998842, 9.664949800004251, 4.071963399997912, 5.5759596999851055, 6.435389199992642, 4.471987299970351, 7.389251800021157, 4.172079099982511, 2.479756199987605, 2.5296143000014126, 4.486699000000954, 3.4568705999990925, 9.467368600016925, 2.230304599972442, 2.076731200038921, 3.6325108999735676, 4.490570300025865, 5.625229900004342, 7.366621299996041]"		661317	1	2022-11-10_17h48.41.895	Tutorial 7	2022.2.2	60.10157166
0.4	1000	exp	3	8	44	10	380.4706442	381.469046	381.469046	381.4854576	space	0.5054507	382.4014099	382.722352	382.722352	382.722352	150	45	"[14.757660900009796, 3.497444099979475, 4.328392499999609, 3.927760999999009, 10.766770799993537, 6.737027299997862, 9.850475099985488, 3.2098986000055447, 3.489623199973721, 1.4319361999514513, 4.888519899977837, 2.1293566999956965, 2.9275343000190333, 3.095291699981317, 3.1331795000005513, 4.370795299997553, 2.834529699990526, 15.936578599968925, 3.8224124999833293, 9.164043600030709, 3.7241023000096902, 6.361510700022336, 2.296456500014756, 2.074573500023689, 2.814022600010503, 6.455469599983189, 9.664939899987075, 4.071955899999011, 5.575947800010908, 6.435373600048479, 4.471979899972212, 7.389242300007027, 4.17206139996415, 2.4797455000225455, 2.529603099974338, 4.48668460000772, 3.4568576000165194, 9.46735820005415, 2.2302933000028133, 2.0767266000038944, 3.6325028999708593, 4.4905520000029355, 5.625217099965084, 7.366610400029458, 2.985420199984219]"	"[14.757675100001507, 3.4974542999989353, 4.32840329996543, 3.9277719000237994, 10.76678050000919, 6.737040099978913, 9.850486399955116, 3.2099119999911636, 3.4896329999901354, 1.4319467999739572, 4.888528199982829, 2.129367900022771, 2.9275459999917075, 3.0953026000061072, 3.1331902000238188, 4.37080109998351, 2.834541000018362, 15.93658909999067, 3.8224197999807075, 9.164055700006429, 3.724114099983126, 6.36152169998968, 2.29646819998743, 2.074584699992556, 2.8140333000337705, 6.455479299998842, 9.664949800004251, 4.071963399997912, 5.5759596999851055, 6.435389199992642, 4.471987299970351, 7.389251800021157, 4.172079099982511, 2.479756199987605, 2.5296143000014126, 4.486699000000954, 3.4568705999990925, 9.467368600016925, 2.230304599972442, 2.076731200038921, 3.6325108999735676, 4.490570300025865, 5.625229900004342, 7.366621299996041, 2.985431000008248]"		661317	1	2022-11-10_17h48.41.895	Tutorial 7	2022.2.2	60.10157166
0.1	1000	exp	3	9	45	3	385.6955526	386.6941696	386.6941696	386.7112216	space	0.8431282	387.660039	387.97624	387.97624	387.97624	100	46	"[14.757660900009796, 3.497444099979475, 4.328392499999609, 3.927760999999009, 10.766770799993537, 6.737027299997862, 9.850475099985488, 3.2098986000055447, 3.489623199973721, 1.4319361999514513, 4.888519899977837, 2.1293566999956965, 2.9275343000190333, 3.095291699981317, 3.1331795000005513, 4.370795299997553, 2.834529699990526, 15.936578599968925, 3.8224124999833293, 9.164043600030709, 3.7241023000096902, 6.361510700022336, 2.296456500014756, 2.074573500023689, 2.814022600010503, 6.455469599983189, 9.664939899987075, 4.071955899999011, 5.575947800010908, 6.435373600048479, 4.471979899972212, 7.389242300007027, 4.17206139996415, 2.4797455000225455, 2.529603099974338, 4.48668460000772, 3.4568576000165194, 9.46735820005415, 2.2302933000028133, 2.0767266000038944, 3.6325028999708593, 4.4905520000029355, 5.625217099965084, 7.366610400029458, 2.985420199984219, 2.965789499983657]"	"[14.757675100001507, 3.4974542999989353, 4.32840329996543, 3.9277719000237994, 10.76678050000919, 6.737040099978913, 9.850486399955116, 3.2099119999911636, 3.4896329999901354, 1.4319467999739572, 4.888528199982829, 2.129367900022771, 2.9275459999917075, 3.0953026000061072, 3.1331902000238188, 4.37080109998351, 2.834541000018362, 15.93658909999067, 3.8224197999807075, 9.164055700006429, 3.724114099983126, 6.36152169998968, 2.29646819998743, 2.074584699992556, 2.8140333000337705, 6.455479299998842, 9.664949800004251, 4.071963399997912, 5.5759596999851055, 6.435389199992642, 4.471987299970351, 7.389251800021157, 4.172079099982511, 2.479756199987605, 2.5296143000014126, 4.486699000000954, 3.4568705999990925, 9.467368600016925, 2.230304599972442, 2.076731200038921, 3.6325108999735676, 4.490570300025865, 5.625229900004342, 7.366621299996041, 2.985431000008248, 2.965800700010732]"		661317	1	2022-11-10_17h48.41.895	Tutorial 7	2022.2.2	60.10157166
0.1	400	unexp	3	10	46	0	390.9360045	391.9201431	391.9201431	391.9363726	space	0.6006922	392.6521093	392.9633005	392.9633005	392.9633005	0	47	"[14.757660900009796, 3.497444099979475, 4.328392499999609, 3.927760999999009, 10.766770799993537, 6.737027299997862, 9.850475099985488, 3.2098986000055447, 3.489623199973721, 1.4319361999514513, 4.888519899977837, 2.1293566999956965, 2.9275343000190333, 3.095291699981317, 3.1331795000005513, 4.370795299997553, 2.834529699990526, 15.936578599968925, 3.8224124999833293, 9.164043600030709, 3.7241023000096902, 6.361510700022336, 2.296456500014756, 2.074573500023689, 2.814022600010503, 6.455469599983189, 9.664939899987075, 4.071955899999011, 5.575947800010908, 6.435373600048479, 4.471979899972212, 7.389242300007027, 4.17206139996415, 2.4797455000225455, 2.529603099974338, 4.48668460000772, 3.4568576000165194, 9.46735820005415, 2.2302933000028133, 2.0767266000038944, 3.6325028999708593, 4.4905520000029355, 5.625217099965084, 7.366610400029458, 2.985420199984219, 2.965789499983657, 2.13066839997191]"	"[14.757675100001507, 3.4974542999989353, 4.32840329996543, 3.9277719000237994, 10.76678050000919, 6.737040099978913, 9.850486399955116, 3.2099119999911636, 3.4896329999901354, 1.4319467999739572, 4.888528199982829, 2.129367900022771, 2.9275459999917075, 3.0953026000061072, 3.1331902000238188, 4.37080109998351, 2.834541000018362, 15.93658909999067, 3.8224197999807075, 9.164055700006429, 3.724114099983126, 6.36152169998968, 2.29646819998743, 2.074584699992556, 2.8140333000337705, 6.455479299998842, 9.664949800004251, 4.071963399997912, 5.5759596999851055, 6.435389199992642, 4.471987299970351, 7.389251800021157, 4.172079099982511, 2.479756199987605, 2.5296143000014126, 4.486699000000954, 3.4568705999990925, 9.467368600016925, 2.230304599972442, 2.076731200038921, 3.6325108999735676, 4.490570300025865, 5.625229900004342, 7.366621299996041, 2.985431000008248, 2.965800700010732, 2.1306837999727577]"	392.9633005	661317	1	2022-11-10_17h48.41.895	Tutorial 7	2022.2.2	60.10157166
0.7	1000	exp	3	11	47	11	395.0817581	396.0799587	396.0799587	396.0963967	space	0.6734045	397.4779997	397.7914041	397.7914041	397.7914041	250	48	"[14.757660900009796, 3.497444099979475, 4.328392499999609, 3.927760999999009, 10.766770799993537, 6.737027299997862, 9.850475099985488, 3.2098986000055447, 3.489623199973721, 1.4319361999514513, 4.888519899977837, 2.1293566999956965, 2.9275343000190333, 3.095291699981317, 3.1331795000005513, 4.370795299997553, 2.834529699990526, 15.936578599968925, 3.8224124999833293, 9.164043600030709, 3.7241023000096902, 6.361510700022336, 2.296456500014756, 2.074573500023689, 2.814022600010503, 6.455469599983189, 9.664939899987075, 4.071955899999011, 5.575947800010908, 6.435373600048479, 4.471979899972212, 7.389242300007027, 4.17206139996415, 2.4797455000225455, 2.529603099974338, 4.48668460000772, 3.4568576000165194, 9.46735820005415, 2.2302933000028133, 2.0767266000038944, 3.6325028999708593, 4.4905520000029355, 5.625217099965084, 7.366610400029458, 2.985420199984219, 2.965789499983657, 2.13066839997191, 3.5413869000039995]"	"[14.757675100001507, 3.4974542999989353, 4.32840329996543, 3.9277719000237994, 10.76678050000919, 6.737040099978913, 9.850486399955116, 3.2099119999911636, 3.4896329999901354, 1.4319467999739572, 4.888528199982829, 2.129367900022771, 2.9275459999917075, 3.0953026000061072, 3.1331902000238188, 4.37080109998351, 2.834541000018362, 15.93658909999067, 3.8224197999807075, 9.164055700006429, 3.724114099983126, 6.36152169998968, 2.29646819998743, 2.074584699992556, 2.8140333000337705, 6.455479299998842, 9.664949800004251, 4.071963399997912, 5.5759596999851055, 6.435389199992642, 4.471987299970351, 7.389251800021157, 4.172079099982511, 2.479756199987605, 2.5296143000014126, 4.486699000000954, 3.4568705999990925, 9.467368600016925, 2.230304599972442, 2.076731200038921, 3.6325108999735676, 4.490570300025865, 5.625229900004342, 7.366621299996041, 2.985431000008248, 2.965800700010732, 2.1306837999727577, 3.5413948000059463]"	397.7914041	661317	1	2022-11-10_17h48.41.895	Tutorial 7	2022.2.2	60.10157166
0.1	400	unexp	4	0	48	0	401.3206408	402.3207115	402.3207115	402.3207115	space	1.1459733	403.5851511	403.8973219	403.8973219	403.8973219	0	49	"[14.757660900009796, 3.497444099979475, 4.328392499999609, 3.927760999999009, 10.766770799993537, 6.737027299997862, 9.850475099985488, 3.2098986000055447, 3.489623199973721, 1.4319361999514513, 4.888519899977837, 2.1293566999956965, 2.9275343000190333, 3.095291699981317, 3.1331795000005513, 4.370795299997553, 2.834529699990526, 15.936578599968925, 3.8224124999833293, 9.164043600030709, 3.7241023000096902, 6.361510700022336, 2.296456500014756, 2.074573500023689, 2.814022600010503, 6.455469599983189, 9.664939899987075, 4.071955899999011, 5.575947800010908, 6.435373600048479, 4.471979899972212, 7.389242300007027, 4.17206139996415, 2.4797455000225455, 2.529603099974338, 4.48668460000772, 3.4568576000165194, 9.46735820005415, 2.2302933000028133, 2.0767266000038944, 3.6325028999708593, 4.4905520000029355, 5.625217099965084, 7.366610400029458, 2.985420199984219, 2.965789499983657, 2.13066839997191, 3.5413869000039995, 4.710261299973354]"	"[14.757675100001507, 3.4974542999989353, 4.32840329996543, 3.9277719000237994, 10.76678050000919, 6.737040099978913, 9.850486399955116, 3.2099119999911636, 3.4896329999901354, 1.4319467999739572, 4.888528199982829, 2.129367900022771, 2.9275459999917075, 3.0953026000061072, 3.1331902000238188, 4.37080109998351, 2.834541000018362, 15.93658909999067, 3.8224197999807075, 9.164055700006429, 3.724114099983126, 6.36152169998968, 2.29646819998743, 2.074584699992556, 2.8140333000337705, 6.455479299998842, 9.664949800004251, 4.071963399997912, 5.5759596999851055, 6.435389199992642, 4.471987299970351, 7.389251800021157, 4.172079099982511, 2.479756199987605, 2.5296143000014126, 4.486699000000954, 3.4568705999990925, 9.467368600016925, 2.230304599972442, 2.076731200038921, 3.6325108999735676, 4.490570300025865, 5.625229900004342, 7.366621299996041, 2.985431000008248, 2.965800700010732, 2.1306837999727577, 3.5413948000059463, 4.710271599993575]"		661317	1	2022-11-10_17h48.41.895	Tutorial 7	2022.2.2	60.10157166
0.4	1000	exp	4	1	49	10	408.5931687	409.5921292	409.5921292	409.608789	space	0.9710866	410.9905998	411.3025712	411.3025712	411.3025712	50	50	"[14.757660900009796, 3.497444099979475, 4.328392499999609, 3.927760999999009, 10.766770799993537, 6.737027299997862, 9.850475099985488, 3.2098986000055447, 3.489623199973721, 1.4319361999514513, 4.888519899977837, 2.1293566999956965, 2.9275343000190333, 3.095291699981317, 3.1331795000005513, 4.370795299997553, 2.834529699990526, 15.936578599968925, 3.8224124999833293, 9.164043600030709, 3.7241023000096902, 6.361510700022336, 2.296456500014756, 2.074573500023689, 2.814022600010503, 6.455469599983189, 9.664939899987075, 4.071955899999011, 5.575947800010908, 6.435373600048479, 4.471979899972212, 7.389242300007027, 4.17206139996415, 2.4797455000225455, 2.529603099974338, 4.48668460000772, 3.4568576000165194, 9.46735820005415, 2.2302933000028133, 2.0767266000038944, 3.6325028999708593, 4.4905520000029355, 5.625217099965084, 7.366610400029458, 2.985420199984219, 2.965789499983657, 2.13066839997191, 3.5413869000039995, 4.710261299973354, 3.8920342000201344]"	"[14.757675100001507, 3.4974542999989353, 4.32840329996543, 3.9277719000237994, 10.76678050000919, 6.737040099978913, 9.850486399955116, 3.2099119999911636, 3.4896329999901354, 1.4319467999739572, 4.888528199982829, 2.129367900022771, 2.9275459999917075, 3.0953026000061072, 3.1331902000238188, 4.37080109998351, 2.834541000018362, 15.93658909999067, 3.8224197999807075, 9.164055700006429, 3.724114099983126, 6.36152169998968, 2.29646819998743, 2.074584699992556, 2.8140333000337705, 6.455479299998842, 9.664949800004251, 4.071963399997912, 5.5759596999851055, 6.435389199992642, 4.471987299970351, 7.389251800021157, 4.172079099982511, 2.479756199987605, 2.5296143000014126, 4.486699000000954, 3.4568705999990925, 9.467368600016925, 2.230304599972442, 2.076731200038921, 3.6325108999735676, 4.490570300025865, 5.625229900004342, 7.366621299996041, 2.985431000008248, 2.965800700010732, 2.1306837999727577, 3.5413948000059463, 4.710271599993575, 3.8920444999821484]"	411.3025712	661317	1	2022-11-10_17h48.41.895	Tutorial 7	2022.2.2	60.10157166
0.1	1000	exp	4	2	50	3	415.1829599	416.1820131	416.1820131	416.1988922	space	5.0807355	421.3909098	421.6998596	421.6998596	421.6998596	0	51	"[14.757660900009796, 3.497444099979475, 4.328392499999609, 3.927760999999009, 10.766770799993537, 6.737027299997862, 9.850475099985488, 3.2098986000055447, 3.489623199973721, 1.4319361999514513, 4.888519899977837, 2.1293566999956965, 2.9275343000190333, 3.095291699981317, 3.1331795000005513, 4.370795299997553, 2.834529699990526, 15.936578599968925, 3.8224124999833293, 9.164043600030709, 3.7241023000096902, 6.361510700022336, 2.296456500014756, 2.074573500023689, 2.814022600010503, 6.455469599983189, 9.664939899987075, 4.071955899999011, 5.575947800010908, 6.435373600048479, 4.471979899972212, 7.389242300007027, 4.17206139996415, 2.4797455000225455, 2.529603099974338, 4.48668460000772, 3.4568576000165194, 9.46735820005415, 2.2302933000028133, 2.0767266000038944, 3.6325028999708593, 4.4905520000029355, 5.625217099965084, 7.366610400029458, 2.985420199984219, 2.965789499983657, 2.13066839997191, 3.5413869000039995, 4.710261299973354, 3.8920342000201344, 3.7947961000027135]"	"[14.757675100001507, 3.4974542999989353, 4.32840329996543, 3.9277719000237994, 10.76678050000919, 6.737040099978913, 9.850486399955116, 3.2099119999911636, 3.4896329999901354, 1.4319467999739572, 4.888528199982829, 2.129367900022771, 2.9275459999917075, 3.0953026000061072, 3.1331902000238188, 4.37080109998351, 2.834541000018362, 15.93658909999067, 3.8224197999807075, 9.164055700006429, 3.724114099983126, 6.36152169998968, 2.29646819998743, 2.074584699992556, 2.8140333000337705, 6.455479299998842, 9.664949800004251, 4.071963399997912, 5.5759596999851055, 6.435389199992642, 4.471987299970351, 7.389251800021157, 4.172079099982511, 2.479756199987605, 2.5296143000014126, 4.486699000000954, 3.4568705999990925, 9.467368600016925, 2.230304599972442, 2.076731200038921, 3.6325108999735676, 4.490570300025865, 5.625229900004342, 7.366621299996041, 2.985431000008248, 2.965800700010732, 2.1306837999727577, 3.5413948000059463, 4.710271599993575, 3.8920444999821484, 3.794806400022935]"		661317	1	2022-11-10_17h48.41.895	Tutorial 7	2022.2.2	60.10157166
0.4	1000	exp	4	3	51	7	425.4833866	426.4819213	426.4819213	426.498721	space	0.9834678	427.8808192	428.195397	428.195397	428.195397	50	52	"[14.757660900009796, 3.497444099979475, 4.328392499999609, 3.927760999999009, 10.766770799993537, 6.737027299997862, 9.850475099985488, 3.2098986000055447, 3.489623199973721, 1.4319361999514513, 4.888519899977837, 2.1293566999956965, 2.9275343000190333, 3.095291699981317, 3.1331795000005513, 4.370795299997553, 2.834529699990526, 15.936578599968925, 3.8224124999833293, 9.164043600030709, 3.7241023000096902, 6.361510700022336, 2.296456500014756, 2.074573500023689, 2.814022600010503, 6.455469599983189, 9.664939899987075, 4.071955899999011, 5.575947800010908, 6.435373600048479, 4.471979899972212, 7.389242300007027, 4.17206139996415, 2.4797455000225455, 2.529603099974338, 4.48668460000772, 3.4568576000165194, 9.46735820005415, 2.2302933000028133, 2.0767266000038944, 3.6325028999708593, 4.4905520000029355, 5.625217099965084, 7.366610400029458, 2.985420199984219, 2.965789499983657, 2.13066839997191, 3.5413869000039995, 4.710261299973354, 3.8920342000201344, 3.7947961000027135, 8.747666599985678]"	"[14.757675100001507, 3.4974542999989353, 4.32840329996543, 3.9277719000237994, 10.76678050000919, 6.737040099978913, 9.850486399955116, 3.2099119999911636, 3.4896329999901354, 1.4319467999739572, 4.888528199982829, 2.129367900022771, 2.9275459999917075, 3.0953026000061072, 3.1331902000238188, 4.37080109998351, 2.834541000018362, 15.93658909999067, 3.8224197999807075, 9.164055700006429, 3.724114099983126, 6.36152169998968, 2.29646819998743, 2.074584699992556, 2.8140333000337705, 6.455479299998842, 9.664949800004251, 4.071963399997912, 5.5759596999851055, 6.435389199992642, 4.471987299970351, 7.389251800021157, 4.172079099982511, 2.479756199987605, 2.5296143000014126, 4.486699000000954, 3.4568705999990925, 9.467368600016925, 2.230304599972442, 2.076731200038921, 3.6325108999735676, 4.490570300025865, 5.625229900004342, 7.366621299996041, 2.985431000008248, 2.965800700010732, 2.1306837999727577, 3.5413948000059463, 4.710271599993575, 3.8920444999821484, 3.794806400022935, 8.747678400017321]"		661317	1	2022-11-10_17h48.41.895	Tutorial 7	2022.2.2	60.10157166
0.7	1000	exp	4	4	52	11	436.9335145	437.9321747	437.9321747	437.9489502	space	0.8244381	439.4795696	439.7935889	439.7935889	439.7935889	200	53	"[14.757660900009796, 3.497444099979475, 4.328392499999609, 3.927760999999009, 10.766770799993537, 6.737027299997862, 9.850475099985488, 3.2098986000055447, 3.489623199973721, 1.4319361999514513, 4.888519899977837, 2.1293566999956965, 2.9275343000190333, 3.095291699981317, 3.1331795000005513, 4.370795299997553, 2.834529699990526, 15.936578599968925, 3.8224124999833293, 9.164043600030709, 3.7241023000096902, 6.361510700022336, 2.296456500014756, 2.074573500023689, 2.814022600010503, 6.455469599983189, 9.664939899987075, 4.071955899999011, 5.575947800010908, 6.435373600048479, 4.471979899972212, 7.389242300007027, 4.17206139996415, 2.4797455000225455, 2.529603099974338, 4.48668460000772, 3.4568576000165194, 9.46735820005415, 2.2302933000028133, 2.0767266000038944, 3.6325028999708593, 4.4905520000029355, 5.625217099965084, 7.366610400029458, 2.985420199984219, 2.965789499983657, 2.13066839997191, 3.5413869000039995, 4.710261299973354, 3.8920342000201344, 3.7947961000027135, 8.747666599985678, 5.7055372999748215]"	"[14.757675100001507, 3.4974542999989353, 4.32840329996543, 3.9277719000237994, 10.76678050000919, 6.737040099978913, 9.850486399955116, 3.2099119999911636, 3.4896329999901354, 1.4319467999739572, 4.888528199982829, 2.129367900022771, 2.9275459999917075, 3.0953026000061072, 3.1331902000238188, 4.37080109998351, 2.834541000018362, 15.93658909999067, 3.8224197999807075, 9.164055700006429, 3.724114099983126, 6.36152169998968, 2.29646819998743, 2.074584699992556, 2.8140333000337705, 6.455479299998842, 9.664949800004251, 4.071963399997912, 5.5759596999851055, 6.435389199992642, 4.471987299970351, 7.389251800021157, 4.172079099982511, 2.479756199987605, 2.5296143000014126, 4.486699000000954, 3.4568705999990925, 9.467368600016925, 2.230304599972442, 2.076731200038921, 3.6325108999735676, 4.490570300025865, 5.625229900004342, 7.366621299996041, 2.985431000008248, 2.965800700010732, 2.1306837999727577, 3.5413948000059463, 4.710271599993575, 3.8920444999821484, 3.794806400022935, 8.747678400017321, 5.7055478999973275]"	439.7935889	661317	1	2022-11-10_17h48.41.895	Tutorial 7	2022.2.2	60.10157166
0.4	400	unexp	4	5	53	1	445.4864413	446.4844015	446.4844015	446.5026706	space	0.821499	447.7335972	448.0366986	448.0366986	448.0366986	150	54	"[14.757660900009796, 3.497444099979475, 4.328392499999609, 3.927760999999009, 10.766770799993537, 6.737027299997862, 9.850475099985488, 3.2098986000055447, 3.489623199973721, 1.4319361999514513, 4.888519899977837, 2.1293566999956965, 2.9275343000190333, 3.095291699981317, 3.1331795000005513, 4.370795299997553, 2.834529699990526, 15.936578599968925, 3.8224124999833293, 9.164043600030709, 3.7241023000096902, 6.361510700022336, 2.296456500014756, 2.074573500023689, 2.814022600010503, 6.455469599983189, 9.664939899987075, 4.071955899999011, 5.575947800010908, 6.435373600048479, 4.471979899972212, 7.389242300007027, 4.17206139996415, 2.4797455000225455, 2.529603099974338, 4.48668460000772, 3.4568576000165194, 9.46735820005415, 2.2302933000028133, 2.0767266000038944, 3.6325028999708593, 4.4905520000029355, 5.625217099965084, 7.366610400029458, 2.985420199984219, 2.965789499983657, 2.13066839997191, 3.5413869000039995, 4.710261299973354, 3.8920342000201344, 3.7947961000027135, 8.747666599985678, 5.7055372999748215, 4.210470499994699]"	"[14.757675100001507, 3.4974542999989353, 4.32840329996543, 3.9277719000237994, 10.76678050000919, 6.737040099978913, 9.850486399955116, 3.2099119999911636, 3.4896329999901354, 1.4319467999739572, 4.888528199982829, 2.129367900022771, 2.9275459999917075, 3.0953026000061072, 3.1331902000238188, 4.37080109998351, 2.834541000018362, 15.93658909999067, 3.8224197999807075, 9.164055700006429, 3.724114099983126, 6.36152169998968, 2.29646819998743, 2.074584699992556, 2.8140333000337705, 6.455479299998842, 9.664949800004251, 4.071963399997912, 5.5759596999851055, 6.435389199992642, 4.471987299970351, 7.389251800021157, 4.172079099982511, 2.479756199987605, 2.5296143000014126, 4.486699000000954, 3.4568705999990925, 9.467368600016925, 2.230304599972442, 2.076731200038921, 3.6325108999735676, 4.490570300025865, 5.625229900004342, 7.366621299996041, 2.985431000008248, 2.965800700010732, 2.1306837999727577, 3.5413948000059463, 4.710271599993575, 3.8920444999821484, 3.794806400022935, 8.747678400017321, 5.7055478999973275, 4.210482199967373]"		661317	1	2022-11-10_17h48.41.895	Tutorial 7	2022.2.2	60.10157166
0.7	1000	exp	4	6	54	5	452.2427107	453.2408401	453.2408401	453.2572827	space	0.4043626	454.3719443	454.6729996	454.6729996	454.6729996	250	55	"[14.757660900009796, 3.497444099979475, 4.328392499999609, 3.927760999999009, 10.766770799993537, 6.737027299997862, 9.850475099985488, 3.2098986000055447, 3.489623199973721, 1.4319361999514513, 4.888519899977837, 2.1293566999956965, 2.9275343000190333, 3.095291699981317, 3.1331795000005513, 4.370795299997553, 2.834529699990526, 15.936578599968925, 3.8224124999833293, 9.164043600030709, 3.7241023000096902, 6.361510700022336, 2.296456500014756, 2.074573500023689, 2.814022600010503, 6.455469599983189, 9.664939899987075, 4.071955899999011, 5.575947800010908, 6.435373600048479, 4.471979899972212, 7.389242300007027, 4.17206139996415, 2.4797455000225455, 2.529603099974338, 4.48668460000772, 3.4568576000165194, 9.46735820005415, 2.2302933000028133, 2.0767266000038944, 3.6325028999708593, 4.4905520000029355, 5.625217099965084, 7.366610400029458, 2.985420199984219, 2.965789499983657, 2.13066839997191, 3.5413869000039995, 4.710261299973354, 3.8920342000201344, 3.7947961000027135, 8.747666599985678, 5.7055372999748215, 4.210470499994699, 3.2763360000099055]"	"[14.757675100001507, 3.4974542999989353, 4.32840329996543, 3.9277719000237994, 10.76678050000919, 6.737040099978913, 9.850486399955116, 3.2099119999911636, 3.4896329999901354, 1.4319467999739572, 4.888528199982829, 2.129367900022771, 2.9275459999917075, 3.0953026000061072, 3.1331902000238188, 4.37080109998351, 2.834541000018362, 15.93658909999067, 3.8224197999807075, 9.164055700006429, 3.724114099983126, 6.36152169998968, 2.29646819998743, 2.074584699992556, 2.8140333000337705, 6.455479299998842, 9.664949800004251, 4.071963399997912, 5.5759596999851055, 6.435389199992642, 4.471987299970351, 7.389251800021157, 4.172079099982511, 2.479756199987605, 2.5296143000014126, 4.486699000000954, 3.4568705999990925, 9.467368600016925, 2.230304599972442, 2.076731200038921, 3.6325108999735676, 4.490570300025865, 5.625229900004342, 7.366621299996041, 2.985431000008248, 2.965800700010732, 2.1306837999727577, 3.5413948000059463, 4.710271599993575, 3.8920444999821484, 3.794806400022935, 8.747678400017321, 5.7055478999973275, 4.210482199967373, 3.276344700017944]"	454.6729996	661317	1	2022-11-10_17h48.41.895	Tutorial 7	2022.2.2	60.10157166
0.7	400	unexp	4	7	55	2	457.9505992	458.9486154	458.9486154	458.9654091	space	0.5089438	460.179505	460.4795934	460.4795934	460.4795934	200	56	"[14.757660900009796, 3.497444099979475, 4.328392499999609, 3.927760999999009, 10.766770799993537, 6.737027299997862, 9.850475099985488, 3.2098986000055447, 3.489623199973721, 1.4319361999514513, 4.888519899977837, 2.1293566999956965, 2.9275343000190333, 3.095291699981317, 3.1331795000005513, 4.370795299997553, 2.834529699990526, 15.936578599968925, 3.8224124999833293, 9.164043600030709, 3.7241023000096902, 6.361510700022336, 2.296456500014756, 2.074573500023689, 2.814022600010503, 6.455469599983189, 9.664939899987075, 4.071955899999011, 5.575947800010908, 6.435373600048479, 4.471979899972212, 7.389242300007027, 4.17206139996415, 2.4797455000225455, 2.529603099974338, 4.48668460000772, 3.4568576000165194, 9.46735820005415, 2.2302933000028133, 2.0767266000038944, 3.6325028999708593, 4.4905520000029355, 5.625217099965084, 7.366610400029458, 2.985420199984219, 2.965789499983657, 2.13066839997191, 3.5413869000039995, 4.710261299973354, 3.8920342000201344, 3.7947961000027135, 8.747666599985678, 5.7055372999748215, 4.210470499994699, 3.2763360000099055, 3.626232800015714]"	"[14.757675100001507, 3.4974542999989353, 4.32840329996543, 3.9277719000237994, 10.76678050000919, 6.737040099978913, 9.850486399955116, 3.2099119999911636, 3.4896329999901354, 1.4319467999739572, 4.888528199982829, 2.129367900022771, 2.9275459999917075, 3.0953026000061072, 3.1331902000238188, 4.37080109998351, 2.834541000018362, 15.93658909999067, 3.8224197999807075, 9.164055700006429, 3.724114099983126, 6.36152169998968, 2.29646819998743, 2.074584699992556, 2.8140333000337705, 6.455479299998842, 9.664949800004251, 4.071963399997912, 5.5759596999851055, 6.435389199992642, 4.471987299970351, 7.389251800021157, 4.172079099982511, 2.479756199987605, 2.5296143000014126, 4.486699000000954, 3.4568705999990925, 9.467368600016925, 2.230304599972442, 2.076731200038921, 3.6325108999735676, 4.490570300025865, 5.625229900004342, 7.366621299996041, 2.985431000008248, 2.965800700010732, 2.1306837999727577, 3.5413948000059463, 4.710271599993575, 3.8920444999821484, 3.794806400022935, 8.747678400017321, 5.7055478999973275, 4.210482199967373, 3.276344700017944, 3.6262424000306055]"		661317	1	2022-11-10_17h48.41.895	Tutorial 7	2022.2.2	60.10157166
0.1	1000	exp	4	8	56	9	464.1073718	465.1063261	465.1063261	465.1063261	space	1.1256236	466.355156	466.661945	466.661945	466.661945	50	57	"[14.757660900009796, 3.497444099979475, 4.328392499999609, 3.927760999999009, 10.766770799993537, 6.737027299997862, 9.850475099985488, 3.2098986000055447, 3.489623199973721, 1.4319361999514513, 4.888519899977837, 2.1293566999956965, 2.9275343000190333, 3.095291699981317, 3.1331795000005513, 4.370795299997553, 2.834529699990526, 15.936578599968925, 3.8224124999833293, 9.164043600030709, 3.7241023000096902, 6.361510700022336, 2.296456500014756, 2.074573500023689, 2.814022600010503, 6.455469599983189, 9.664939899987075, 4.071955899999011, 5.575947800010908, 6.435373600048479, 4.471979899972212, 7.389242300007027, 4.17206139996415, 2.4797455000225455, 2.529603099974338, 4.48668460000772, 3.4568576000165194, 9.46735820005415, 2.2302933000028133, 2.0767266000038944, 3.6325028999708593, 4.4905520000029355, 5.625217099965084, 7.366610400029458, 2.985420199984219, 2.965789499983657, 2.13066839997191, 3.5413869000039995, 4.710261299973354, 3.8920342000201344, 3.7947961000027135, 8.747666599985678, 5.7055372999748215, 4.210470499994699, 3.2763360000099055, 3.626232800015714, 4.283004899974912]"	"[14.757675100001507, 3.4974542999989353, 4.32840329996543, 3.9277719000237994, 10.76678050000919, 6.737040099978913, 9.850486399955116, 3.2099119999911636, 3.4896329999901354, 1.4319467999739572, 4.888528199982829, 2.129367900022771, 2.9275459999917075, 3.0953026000061072, 3.1331902000238188, 4.37080109998351, 2.834541000018362, 15.93658909999067, 3.8224197999807075, 9.164055700006429, 3.724114099983126, 6.36152169998968, 2.29646819998743, 2.074584699992556, 2.8140333000337705, 6.455479299998842, 9.664949800004251, 4.071963399997912, 5.5759596999851055, 6.435389199992642, 4.471987299970351, 7.389251800021157, 4.172079099982511, 2.479756199987605, 2.5296143000014126, 4.486699000000954, 3.4568705999990925, 9.467368600016925, 2.230304599972442, 2.076731200038921, 3.6325108999735676, 4.490570300025865, 5.625229900004342, 7.366621299996041, 2.985431000008248, 2.965800700010732, 2.1306837999727577, 3.5413948000059463, 4.710271599993575, 3.8920444999821484, 3.794806400022935, 8.747678400017321, 5.7055478999973275, 4.210482199967373, 3.276344700017944, 3.6262424000306055, 4.283017599955201]"		661317	1	2022-11-10_17h48.41.895	Tutorial 7	2022.2.2	60.10157166
0.1	1000	exp	4	9	57	6	470.9455053	471.9301233	471.9301233	471.9466732	space	0.7108178	472.7612328	473.0754989	473.0754989	473.0754989	0	58	"[14.757660900009796, 3.497444099979475, 4.328392499999609, 3.927760999999009, 10.766770799993537, 6.737027299997862, 9.850475099985488, 3.2098986000055447, 3.489623199973721, 1.4319361999514513, 4.888519899977837, 2.1293566999956965, 2.9275343000190333, 3.095291699981317, 3.1331795000005513, 4.370795299997553, 2.834529699990526, 15.936578599968925, 3.8224124999833293, 9.164043600030709, 3.7241023000096902, 6.361510700022336, 2.296456500014756, 2.074573500023689, 2.814022600010503, 6.455469599983189, 9.664939899987075, 4.071955899999011, 5.575947800010908, 6.435373600048479, 4.471979899972212, 7.389242300007027, 4.17206139996415, 2.4797455000225455, 2.529603099974338, 4.48668460000772, 3.4568576000165194, 9.46735820005415, 2.2302933000028133, 2.0767266000038944, 3.6325028999708593, 4.4905520000029355, 5.625217099965084, 7.366610400029458, 2.985420199984219, 2.965789499983657, 2.13066839997191, 3.5413869000039995, 4.710261299973354, 3.8920342000201344, 3.7947961000027135, 8.747666599985678, 5.7055372999748215, 4.210470499994699, 3.2763360000099055, 3.626232800015714, 4.283004899974912, 2.624040100025013]"	"[14.757675100001507, 3.4974542999989353, 4.32840329996543, 3.9277719000237994, 10.76678050000919, 6.737040099978913, 9.850486399955116, 3.2099119999911636, 3.4896329999901354, 1.4319467999739572, 4.888528199982829, 2.129367900022771, 2.9275459999917075, 3.0953026000061072, 3.1331902000238188, 4.37080109998351, 2.834541000018362, 15.93658909999067, 3.8224197999807075, 9.164055700006429, 3.724114099983126, 6.36152169998968, 2.29646819998743, 2.074584699992556, 2.8140333000337705, 6.455479299998842, 9.664949800004251, 4.071963399997912, 5.5759596999851055, 6.435389199992642, 4.471987299970351, 7.389251800021157, 4.172079099982511, 2.479756199987605, 2.5296143000014126, 4.486699000000954, 3.4568705999990925, 9.467368600016925, 2.230304599972442, 2.076731200038921, 3.6325108999735676, 4.490570300025865, 5.625229900004342, 7.366621299996041, 2.985431000008248, 2.965800700010732, 2.1306837999727577, 3.5413948000059463, 4.710271599993575, 3.8920444999821484, 3.794806400022935, 8.747678400017321, 5.7055478999973275, 4.210482199967373, 3.276344700017944, 3.6262424000306055, 4.283017599955201, 2.6240504999877885]"	473.0754989	661317	1	2022-11-10_17h48.41.895	Tutorial 7	2022.2.2	60.10157166
0.4	1000	exp	4	10	58	4	475.6893863	476.6880485	476.6880485	476.6880485	space	1.1396797	478.2530202	478.5637664	478.5637664	478.5637664	25	59	"[14.757660900009796, 3.497444099979475, 4.328392499999609, 3.927760999999009, 10.766770799993537, 6.737027299997862, 9.850475099985488, 3.2098986000055447, 3.489623199973721, 1.4319361999514513, 4.888519899977837, 2.1293566999956965, 2.9275343000190333, 3.095291699981317, 3.1331795000005513, 4.370795299997553, 2.834529699990526, 15.936578599968925, 3.8224124999833293, 9.164043600030709, 3.7241023000096902, 6.361510700022336, 2.296456500014756, 2.074573500023689, 2.814022600010503, 6.455469599983189, 9.664939899987075, 4.071955899999011, 5.575947800010908, 6.435373600048479, 4.471979899972212, 7.389242300007027, 4.17206139996415, 2.4797455000225455, 2.529603099974338, 4.48668460000772, 3.4568576000165194, 9.46735820005415, 2.2302933000028133, 2.0767266000038944, 3.6325028999708593, 4.4905520000029355, 5.625217099965084, 7.366610400029458, 2.985420199984219, 2.965789499983657, 2.13066839997191, 3.5413869000039995, 4.710261299973354, 3.8920342000201344, 3.7947961000027135, 8.747666599985678, 5.7055372999748215, 4.210470499994699, 3.2763360000099055, 3.626232800015714, 4.283004899974912, 2.624040100025013, 3.722995300020557]"	"[14.757675100001507, 3.4974542999989353, 4.32840329996543, 3.9277719000237994, 10.76678050000919, 6.737040099978913, 9.850486399955116, 3.2099119999911636, 3.4896329999901354, 1.4319467999739572, 4.888528199982829, 2.129367900022771, 2.9275459999917075, 3.0953026000061072, 3.1331902000238188, 4.37080109998351, 2.834541000018362, 15.93658909999067, 3.8224197999807075, 9.164055700006429, 3.724114099983126, 6.36152169998968, 2.29646819998743, 2.074584699992556, 2.8140333000337705, 6.455479299998842, 9.664949800004251, 4.071963399997912, 5.5759596999851055, 6.435389199992642, 4.471987299970351, 7.389251800021157, 4.172079099982511, 2.479756199987605, 2.5296143000014126, 4.486699000000954, 3.4568705999990925, 9.467368600016925, 2.230304599972442, 2.076731200038921, 3.6325108999735676, 4.490570300025865, 5.625229900004342, 7.366621299996041, 2.985431000008248, 2.965800700010732, 2.1306837999727577, 3.5413948000059463, 4.710271599993575, 3.8920444999821484, 3.794806400022935, 8.747678400017321, 5.7055478999973275, 4.210482199967373, 3.276344700017944, 3.6262424000306055, 4.283017599955201, 2.6240504999877885, 3.72300900000846]"		661317	1	2022-11-10_17h48.41.895	Tutorial 7	2022.2.2	60.10157166
0.7	1000	exp	4	11	59	8	482.2793322	483.2787647	483.2787647	483.2787647	space	1.3030919	485.3090679	485.6201626	485.6201626	485.6201626	170	60	"[14.757660900009796, 3.497444099979475, 4.328392499999609, 3.927760999999009, 10.766770799993537, 6.737027299997862, 9.850475099985488, 3.2098986000055447, 3.489623199973721, 1.4319361999514513, 4.888519899977837, 2.1293566999956965, 2.9275343000190333, 3.095291699981317, 3.1331795000005513, 4.370795299997553, 2.834529699990526, 15.936578599968925, 3.8224124999833293, 9.164043600030709, 3.7241023000096902, 6.361510700022336, 2.296456500014756, 2.074573500023689, 2.814022600010503, 6.455469599983189, 9.664939899987075, 4.071955899999011, 5.575947800010908, 6.435373600048479, 4.471979899972212, 7.389242300007027, 4.17206139996415, 2.4797455000225455, 2.529603099974338, 4.48668460000772, 3.4568576000165194, 9.46735820005415, 2.2302933000028133, 2.0767266000038944, 3.6325028999708593, 4.4905520000029355, 5.625217099965084, 7.366610400029458, 2.985420199984219, 2.965789499983657, 2.13066839997191, 3.5413869000039995, 4.710261299973354, 3.8920342000201344, 3.7947961000027135, 8.747666599985678, 5.7055372999748215, 4.210470499994699, 3.2763360000099055, 3.626232800015714, 4.283004899974912, 2.624040100025013, 3.722995300020557, 5.290479299961589]"	"[14.757675100001507, 3.4974542999989353, 4.32840329996543, 3.9277719000237994, 10.76678050000919, 6.737040099978913, 9.850486399955116, 3.2099119999911636, 3.4896329999901354, 1.4319467999739572, 4.888528199982829, 2.129367900022771, 2.9275459999917075, 3.0953026000061072, 3.1331902000238188, 4.37080109998351, 2.834541000018362, 15.93658909999067, 3.8224197999807075, 9.164055700006429, 3.724114099983126, 6.36152169998968, 2.29646819998743, 2.074584699992556, 2.8140333000337705, 6.455479299998842, 9.664949800004251, 4.071963399997912, 5.5759596999851055, 6.435389199992642, 4.471987299970351, 7.389251800021157, 4.172079099982511, 2.479756199987605, 2.5296143000014126, 4.486699000000954, 3.4568705999990925, 9.467368600016925, 2.230304599972442, 2.076731200038921, 3.6325108999735676, 4.490570300025865, 5.625229900004342, 7.366621299996041, 2.985431000008248, 2.965800700010732, 2.1306837999727577, 3.5413948000059463, 4.710271599993575, 3.8920444999821484, 3.794806400022935, 8.747678400017321, 5.7055478999973275, 4.210482199967373, 3.276344700017944, 3.6262424000306055, 4.283017599955201, 2.6240504999877885, 3.72300900000846, 5.290488999977242]"	485.6201626	661317	1	2022-11-10_17h48.41.895	Tutorial 7	2022.2.2	60.10157166
